"","image","trialnum","condition","l_block_trial_key_resp.keys","l_block_trial_key_resp.rt","v_block_trial_key_resp.keys","v_block_trial_key_resp.rt","vtarget","Run","PartID","ltarget","expName"
"1","L.png",193,"R","None",NA,"",NA,3,5,"f002",FALSE,"visual"
"2","M.png",194,"R","None",NA,"",NA,3,5,"f002",FALSE,"visual"
"3","E.png",195,"R","None",NA,"",NA,3,5,"f002",FALSE,"visual"
"4","F.png",196,"R","3",0.383697417099,"",NA,3,5,"f002",FALSE,"visual"
"5","E.png",197,"R","None",NA,"",NA,3,5,"f002",FALSE,"visual"
"6","D.png",198,"R","None",NA,"",NA,3,5,"f002",FALSE,"visual"
"7","C.png",199,"R","None",NA,"",NA,3,5,"f002",FALSE,"visual"
"8","L.png",200,"R","None",NA,"",NA,3,5,"f002",FALSE,"visual"
"9","A.png",201,"R","None",NA,"",NA,3,5,"f002",FALSE,"visual"
"10","B.png",202,"R","None",NA,"",NA,3,5,"f002",FALSE,"visual"
"11","B.png",203,"R","None",NA,"",NA,3,5,"f002",FALSE,"visual"
"12","H.png",204,"R","None",NA,"",NA,3,5,"f002",FALSE,"visual"
"13","G.png",205,"R","None",NA,"",NA,3,5,"f002",FALSE,"visual"
"14","K.png",206,"R","None",NA,"",NA,3,5,"f002",FALSE,"visual"
"15","G.png",207,"R","None",NA,"",NA,3,5,"f002",FALSE,"visual"
"16","A.png",208,"R","None",NA,"",NA,3,5,"f002",FALSE,"visual"
"17","M.png",209,"R","None",NA,"",NA,3,5,"f002",FALSE,"visual"
"18","K.png",210,"R","None",NA,"",NA,3,5,"f002",FALSE,"visual"
"19","C.png",211,"R","None",NA,"",NA,3,5,"f002",FALSE,"visual"
"20","J.png",212,"R","None",NA,"",NA,3,5,"f002",FALSE,"visual"
"21","J.png",213,"R","None",NA,"",NA,3,5,"f002",FALSE,"visual"
"22","H.png",214,"R","None",NA,"",NA,3,5,"f002",FALSE,"visual"
"23","D.png",215,"R","None",NA,"",NA,3,5,"f002",FALSE,"visual"
"24","F.png",216,"R","3",0.500399786513,"",NA,3,5,"f002",FALSE,"visual"
"25","F.png",217,"R","3",0.417032580357,"",NA,3,5,"f002",FALSE,"visual"
"26","K.png",218,"R","None",NA,"",NA,3,5,"f002",FALSE,"visual"
"27","C.png",219,"R","None",NA,"",NA,3,5,"f002",FALSE,"visual"
"28","G.png",220,"R","None",NA,"",NA,3,5,"f002",FALSE,"visual"
"29","A.png",221,"R","None",NA,"",NA,3,5,"f002",FALSE,"visual"
"30","M.png",222,"R","None",NA,"",NA,3,5,"f002",FALSE,"visual"
"31","C.png",223,"R","None",NA,"",NA,3,5,"f002",FALSE,"visual"
"32","A.png",224,"R","None",NA,"",NA,3,5,"f002",FALSE,"visual"
"33","J.png",225,"R","None",NA,"",NA,3,5,"f002",FALSE,"visual"
"34","E.png",226,"R","None",NA,"",NA,3,5,"f002",FALSE,"visual"
"35","J.png",227,"R","None",NA,"",NA,3,5,"f002",FALSE,"visual"
"36","H.png",228,"R","None",NA,"",NA,3,5,"f002",FALSE,"visual"
"37","H.png",229,"R","None",NA,"",NA,3,5,"f002",FALSE,"visual"
"38","M.png",230,"R","None",NA,"",NA,3,5,"f002",FALSE,"visual"
"39","D.png",231,"R","None",NA,"",NA,3,5,"f002",FALSE,"visual"
"40","D.png",232,"R","None",NA,"",NA,3,5,"f002",FALSE,"visual"
"41","L.png",233,"R","None",NA,"",NA,3,5,"f002",FALSE,"visual"
"42","B.png",234,"R","None",NA,"",NA,3,5,"f002",FALSE,"visual"
"43","K.png",235,"R","None",NA,"",NA,3,5,"f002",FALSE,"visual"
"44","E.png",236,"R","None",NA,"",NA,3,5,"f002",FALSE,"visual"
"45","F.png",237,"R","3",0.408639483154,"",NA,3,5,"f002",FALSE,"visual"
"46","G.png",238,"R","None",NA,"",NA,3,5,"f002",FALSE,"visual"
"47","B.png",239,"R","None",NA,"",NA,3,5,"f002",FALSE,"visual"
"48","L.png",240,"R","None",NA,"",NA,3,5,"f002",FALSE,"visual"
"49","Alien4.bmp",193,"S","",NA,"None",NA,3,5,"f002",FALSE,"visual"
"50","Alien5.bmp",194,"S","",NA,"None",NA,3,5,"f002",FALSE,"visual"
"51","Alien6.bmp",195,"S","",NA,"None",NA,3,5,"f002",FALSE,"visual"
"52","Alien7.bmp",196,"S","",NA,"None",NA,3,5,"f002",FALSE,"visual"
"53","Alien8.bmp",197,"S","",NA,"None",NA,3,5,"f002",FALSE,"visual"
"54","Alien9.bmp",198,"S","",NA,"None",NA,3,5,"f002",FALSE,"visual"
"55","Alien1.bmp",199,"S","",NA,"None",NA,3,5,"f002",FALSE,"visual"
"56","Alien2.bmp",200,"S","",NA,"None",NA,3,5,"f002",FALSE,"visual"
"57","Alien3.bmp",201,"S","",NA,"3",0.0752448993735,3,5,"f002",FALSE,"visual"
"58","Alien10.bmp",202,"S","",NA,"None",NA,3,5,"f002",FALSE,"visual"
"59","Alien11.bmp",203,"S","",NA,"None",NA,3,5,"f002",FALSE,"visual"
"60","Alien12.bmp",204,"S","",NA,"None",NA,3,5,"f002",FALSE,"visual"
"61","Alien7.bmp",205,"S","",NA,"None",NA,3,5,"f002",FALSE,"visual"
"62","Alien8.bmp",206,"S","",NA,"None",NA,3,5,"f002",FALSE,"visual"
"63","Alien9.bmp",207,"S","",NA,"None",NA,3,5,"f002",FALSE,"visual"
"64","Alien4.bmp",208,"S","",NA,"None",NA,3,5,"f002",FALSE,"visual"
"65","Alien5.bmp",209,"S","",NA,"None",NA,3,5,"f002",FALSE,"visual"
"66","Alien6.bmp",210,"S","",NA,"None",NA,3,5,"f002",FALSE,"visual"
"67","Alien1.bmp",211,"S","",NA,"None",NA,3,5,"f002",FALSE,"visual"
"68","Alien2.bmp",212,"S","",NA,"None",NA,3,5,"f002",FALSE,"visual"
"69","Alien3.bmp",213,"S","",NA,"3",0.00862321304157,3,5,"f002",FALSE,"visual"
"70","Alien10.bmp",214,"S","",NA,"None",NA,3,5,"f002",FALSE,"visual"
"71","Alien11.bmp",215,"S","",NA,"None",NA,3,5,"f002",FALSE,"visual"
"72","Alien12.bmp",216,"S","",NA,"None",NA,3,5,"f002",FALSE,"visual"
"73","Alien4.bmp",217,"S","",NA,"None",NA,3,5,"f002",FALSE,"visual"
"74","Alien5.bmp",218,"S","",NA,"None",NA,3,5,"f002",FALSE,"visual"
"75","Alien6.bmp",219,"S","",NA,"None",NA,3,5,"f002",FALSE,"visual"
"76","Alien10.bmp",220,"S","",NA,"None",NA,3,5,"f002",FALSE,"visual"
"77","Alien11.bmp",221,"S","",NA,"None",NA,3,5,"f002",FALSE,"visual"
"78","Alien12.bmp",222,"S","",NA,"None",NA,3,5,"f002",FALSE,"visual"
"79","Alien7.bmp",223,"S","",NA,"None",NA,3,5,"f002",FALSE,"visual"
"80","Alien8.bmp",224,"S","",NA,"None",NA,3,5,"f002",FALSE,"visual"
"81","Alien9.bmp",225,"S","",NA,"None",NA,3,5,"f002",FALSE,"visual"
"82","Alien1.bmp",226,"S","",NA,"None",NA,3,5,"f002",FALSE,"visual"
"83","Alien2.bmp",227,"S","",NA,"None",NA,3,5,"f002",FALSE,"visual"
"84","Alien3.bmp",228,"S","",NA,"3",0.0586691936478,3,5,"f002",FALSE,"visual"
"85","Alien7.bmp",229,"S","",NA,"None",NA,3,5,"f002",FALSE,"visual"
"86","Alien8.bmp",230,"S","",NA,"None",NA,3,5,"f002",FALSE,"visual"
"87","Alien9.bmp",231,"S","",NA,"None",NA,3,5,"f002",FALSE,"visual"
"88","Alien10.bmp",232,"S","",NA,"None",NA,3,5,"f002",FALSE,"visual"
"89","Alien11.bmp",233,"S","",NA,"None",NA,3,5,"f002",FALSE,"visual"
"90","Alien12.bmp",234,"S","",NA,"None",NA,3,5,"f002",FALSE,"visual"
"91","Alien4.bmp",235,"S","",NA,"None",NA,3,5,"f002",FALSE,"visual"
"92","Alien5.bmp",236,"S","",NA,"None",NA,3,5,"f002",FALSE,"visual"
"93","Alien6.bmp",237,"S","",NA,"None",NA,3,5,"f002",FALSE,"visual"
"94","Alien1.bmp",238,"S","",NA,"None",NA,3,5,"f002",FALSE,"visual"
"95","Alien2.bmp",239,"S","",NA,"None",NA,3,5,"f002",FALSE,"visual"
"96","Alien3.bmp",240,"S","",NA,"3",0.0419842605479,3,5,"f002",FALSE,"visual"
"97","blank.png",0,"B","",NA,"None",NA,3,5,"f002",FALSE,"visual"
"98","blank.png",0,"B","",NA,"None",NA,3,5,"f002",FALSE,"visual"
"99","blank.png",0,"B","",NA,"None",NA,3,5,"f002",FALSE,"visual"
"100","blank.png",0,"B","",NA,"None",NA,3,5,"f002",FALSE,"visual"
"101","blank.png",0,"B","",NA,"None",NA,3,5,"f002",FALSE,"visual"
"102","blank.png",0,"B","",NA,"None",NA,3,5,"f002",FALSE,"visual"
"103","blank.png",0,"B","",NA,"None",NA,3,5,"f002",FALSE,"visual"
"104","blank.png",0,"B","",NA,"None",NA,3,5,"f002",FALSE,"visual"
"105","blank.png",0,"B","",NA,"None",NA,3,5,"f002",FALSE,"visual"
"106","blank.png",0,"B","",NA,"None",NA,3,5,"f002",FALSE,"visual"
"107","blank.png",0,"B","",NA,"None",NA,3,5,"f002",FALSE,"visual"
"108","blank.png",0,"B","",NA,"None",NA,3,5,"f002",FALSE,"visual"
"109","D.png",241,"R","None",NA,"",NA,3,5,"f002",FALSE,"visual"
"110","K.png",242,"R","None",NA,"",NA,3,5,"f002",FALSE,"visual"
"111","K.png",243,"R","None",NA,"",NA,3,5,"f002",FALSE,"visual"
"112","H.png",244,"R","None",NA,"",NA,3,5,"f002",FALSE,"visual"
"113","H.png",245,"R","None",NA,"",NA,3,5,"f002",FALSE,"visual"
"114","J.png",246,"R","None",NA,"",NA,3,5,"f002",FALSE,"visual"
"115","F.png",247,"R","3",0.442120850552,"",NA,3,5,"f002",FALSE,"visual"
"116","M.png",248,"R","None",NA,"",NA,3,5,"f002",FALSE,"visual"
"117","B.png",249,"R","None",NA,"",NA,3,5,"f002",FALSE,"visual"
"118","C.png",250,"R","None",NA,"",NA,3,5,"f002",FALSE,"visual"
"119","C.png",251,"R","None",NA,"",NA,3,5,"f002",FALSE,"visual"
"120","E.png",252,"R","None",NA,"",NA,3,5,"f002",FALSE,"visual"
"121","L.png",253,"R","None",NA,"",NA,3,5,"f002",FALSE,"visual"
"122","G.png",254,"R","None",NA,"",NA,3,5,"f002",FALSE,"visual"
"123","M.png",255,"R","None",NA,"",NA,3,5,"f002",FALSE,"visual"
"124","B.png",256,"R","None",NA,"",NA,3,5,"f002",FALSE,"visual"
"125","E.png",257,"R","None",NA,"",NA,3,5,"f002",FALSE,"visual"
"126","L.png",258,"R","None",NA,"",NA,3,5,"f002",FALSE,"visual"
"127","E.png",259,"R","None",NA,"",NA,3,5,"f002",FALSE,"visual"
"128","H.png",260,"R","None",NA,"",NA,3,5,"f002",FALSE,"visual"
"129","D.png",261,"R","None",NA,"",NA,3,5,"f002",FALSE,"visual"
"130","A.png",262,"R","None",NA,"",NA,3,5,"f002",FALSE,"visual"
"131","G.png",263,"R","None",NA,"",NA,3,5,"f002",FALSE,"visual"
"132","L.png",264,"R","None",NA,"",NA,3,5,"f002",FALSE,"visual"
"133","D.png",265,"R","None",NA,"",NA,3,5,"f002",FALSE,"visual"
"134","A.png",266,"R","None",NA,"",NA,3,5,"f002",FALSE,"visual"
"135","H.png",267,"R","None",NA,"",NA,3,5,"f002",FALSE,"visual"
"136","G.png",268,"R","None",NA,"",NA,3,5,"f002",FALSE,"visual"
"137","G.png",269,"R","None",NA,"",NA,3,5,"f002",FALSE,"visual"
"138","M.png",270,"R","None",NA,"",NA,3,5,"f002",FALSE,"visual"
"139","F.png",271,"R","3",0.483604773413,"",NA,3,5,"f002",FALSE,"visual"
"140","M.png",272,"R","None",NA,"",NA,3,5,"f002",FALSE,"visual"
"141","K.png",273,"R","None",NA,"",NA,3,5,"f002",FALSE,"visual"
"142","K.png",274,"R","None",NA,"",NA,3,5,"f002",FALSE,"visual"
"143","J.png",275,"R","None",NA,"",NA,3,5,"f002",FALSE,"visual"
"144","B.png",276,"R","None",NA,"",NA,3,5,"f002",FALSE,"visual"
"145","B.png",277,"R","None",NA,"",NA,3,5,"f002",FALSE,"visual"
"146","C.png",278,"R","None",NA,"",NA,3,5,"f002",FALSE,"visual"
"147","F.png",279,"R","3",0.550380059984,"",NA,3,5,"f002",FALSE,"visual"
"148","F.png",280,"R","3",0.475382342935,"",NA,3,5,"f002",FALSE,"visual"
"149","J.png",281,"R","None",NA,"",NA,3,5,"f002",FALSE,"visual"
"150","A.png",282,"R","None",NA,"",NA,3,5,"f002",FALSE,"visual"
"151","C.png",283,"R","None",NA,"",NA,3,5,"f002",FALSE,"visual"
"152","A.png",284,"R","None",NA,"",NA,3,5,"f002",FALSE,"visual"
"153","L.png",285,"R","None",NA,"",NA,3,5,"f002",FALSE,"visual"
"154","J.png",286,"R","None",NA,"",NA,3,5,"f002",FALSE,"visual"
"155","D.png",287,"R","None",NA,"",NA,3,5,"f002",FALSE,"visual"
"156","E.png",288,"R","None",NA,"",NA,3,5,"f002",FALSE,"visual"
"157","F.png",289,"R","3",0.440663073678,"",NA,3,5,"f002",FALSE,"visual"
"158","G.png",290,"R","None",NA,"",NA,3,5,"f002",FALSE,"visual"
"159","E.png",291,"R","None",NA,"",NA,3,5,"f002",FALSE,"visual"
"160","D.png",292,"R","None",NA,"",NA,3,5,"f002",FALSE,"visual"
"161","C.png",293,"R","None",NA,"",NA,3,5,"f002",FALSE,"visual"
"162","B.png",294,"R","None",NA,"",NA,3,5,"f002",FALSE,"visual"
"163","H.png",295,"R","None",NA,"",NA,3,5,"f002",FALSE,"visual"
"164","M.png",296,"R","None",NA,"",NA,3,5,"f002",FALSE,"visual"
"165","F.png",297,"R","3",0.517068790272,"",NA,3,5,"f002",FALSE,"visual"
"166","A.png",298,"R","None",NA,"",NA,3,5,"f002",FALSE,"visual"
"167","B.png",299,"R","None",NA,"",NA,3,5,"f002",FALSE,"visual"
"168","J.png",300,"R","None",NA,"",NA,3,5,"f002",FALSE,"visual"
"169","C.png",301,"R","None",NA,"",NA,3,5,"f002",FALSE,"visual"
"170","G.png",302,"R","None",NA,"",NA,3,5,"f002",FALSE,"visual"
"171","J.png",303,"R","None",NA,"",NA,3,5,"f002",FALSE,"visual"
"172","B.png",304,"R","None",NA,"",NA,3,5,"f002",FALSE,"visual"
"173","M.png",305,"R","None",NA,"",NA,3,5,"f002",FALSE,"visual"
"174","A.png",306,"R","None",NA,"",NA,3,5,"f002",FALSE,"visual"
"175","L.png",307,"R","None",NA,"",NA,3,5,"f002",FALSE,"visual"
"176","K.png",308,"R","None",NA,"",NA,3,5,"f002",FALSE,"visual"
"177","K.png",309,"R","None",NA,"",NA,3,5,"f002",FALSE,"visual"
"178","K.png",310,"R","None",NA,"",NA,3,5,"f002",FALSE,"visual"
"179","D.png",311,"R","None",NA,"",NA,3,5,"f002",FALSE,"visual"
"180","M.png",312,"R","None",NA,"",NA,3,5,"f002",FALSE,"visual"
"181","blank.png",0,"B","",NA,"",NA,3,5,"f002",FALSE,"visual"
"182","blank.png",0,"B","",NA,"",NA,3,5,"f002",FALSE,"visual"
"183","blank.png",0,"B","",NA,"",NA,3,5,"f002",FALSE,"visual"
"184","blank.png",0,"B","",NA,"",NA,3,5,"f002",FALSE,"visual"
"185","blank.png",0,"B","",NA,"",NA,3,5,"f002",FALSE,"visual"
"186","blank.png",0,"B","",NA,"",NA,3,5,"f002",FALSE,"visual"
"187","blank.png",0,"B","",NA,"",NA,3,5,"f002",FALSE,"visual"
"188","blank.png",0,"B","",NA,"",NA,3,5,"f002",FALSE,"visual"
"189","blank.png",0,"B","",NA,"",NA,3,5,"f002",FALSE,"visual"
"190","blank.png",0,"B","",NA,"",NA,3,5,"f002",FALSE,"visual"
"191","blank.png",0,"B","",NA,"",NA,3,5,"f002",FALSE,"visual"
"192","blank.png",0,"B","",NA,"",NA,3,5,"f002",FALSE,"visual"
"193","Alien7.bmp",241,"S","",NA,"None",NA,3,5,"f002",FALSE,"visual"
"194","Alien8.bmp",242,"S","",NA,"None",NA,3,5,"f002",FALSE,"visual"
"195","Alien9.bmp",243,"S","",NA,"None",NA,3,5,"f002",FALSE,"visual"
"196","Alien4.bmp",244,"S","",NA,"None",NA,3,5,"f002",FALSE,"visual"
"197","Alien5.bmp",245,"S","",NA,"None",NA,3,5,"f002",FALSE,"visual"
"198","Alien6.bmp",246,"S","",NA,"None",NA,3,5,"f002",FALSE,"visual"
"199","Alien10.bmp",247,"S","",NA,"None",NA,3,5,"f002",FALSE,"visual"
"200","Alien11.bmp",248,"S","",NA,"None",NA,3,5,"f002",FALSE,"visual"
"201","Alien12.bmp",249,"S","",NA,"None",NA,3,5,"f002",FALSE,"visual"
"202","Alien7.bmp",250,"S","",NA,"None",NA,3,5,"f002",FALSE,"visual"
"203","Alien8.bmp",251,"S","",NA,"None",NA,3,5,"f002",FALSE,"visual"
"204","Alien9.bmp",252,"S","",NA,"None",NA,3,5,"f002",FALSE,"visual"
"205","Alien4.bmp",253,"S","",NA,"None",NA,3,5,"f002",FALSE,"visual"
"206","Alien5.bmp",254,"S","",NA,"None",NA,3,5,"f002",FALSE,"visual"
"207","Alien6.bmp",255,"S","",NA,"None",NA,3,5,"f002",FALSE,"visual"
"208","Alien10.bmp",256,"S","",NA,"None",NA,3,5,"f002",FALSE,"visual"
"209","Alien11.bmp",257,"S","",NA,"None",NA,3,5,"f002",FALSE,"visual"
"210","Alien12.bmp",258,"S","",NA,"None",NA,3,5,"f002",FALSE,"visual"
"211","Alien1.bmp",259,"S","",NA,"None",NA,3,5,"f002",FALSE,"visual"
"212","Alien2.bmp",260,"S","",NA,"None",NA,3,5,"f002",FALSE,"visual"
"213","Alien3.bmp",261,"S","",NA,"3",0.183669655118,3,5,"f002",FALSE,"visual"
"214","Alien7.bmp",262,"S","",NA,"None",NA,3,5,"f002",FALSE,"visual"
"215","Alien8.bmp",263,"S","",NA,"None",NA,3,5,"f002",FALSE,"visual"
"216","Alien9.bmp",264,"S","",NA,"None",NA,3,5,"f002",FALSE,"visual"
"217","blank.png",0,"B","",NA,"None",NA,3,5,"f002",FALSE,"visual"
"218","blank.png",0,"B","",NA,"None",NA,3,5,"f002",FALSE,"visual"
"219","blank.png",0,"B","",NA,"None",NA,3,5,"f002",FALSE,"visual"
"220","blank.png",0,"B","",NA,"None",NA,3,5,"f002",FALSE,"visual"
"221","blank.png",0,"B","",NA,"None",NA,3,5,"f002",FALSE,"visual"
"222","blank.png",0,"B","",NA,"None",NA,3,5,"f002",FALSE,"visual"
"223","blank.png",0,"B","",NA,"None",NA,3,5,"f002",FALSE,"visual"
"224","blank.png",0,"B","",NA,"None",NA,3,5,"f002",FALSE,"visual"
"225","blank.png",0,"B","",NA,"None",NA,3,5,"f002",FALSE,"visual"
"226","blank.png",0,"B","",NA,"None",NA,3,5,"f002",FALSE,"visual"
"227","blank.png",0,"B","",NA,"None",NA,3,5,"f002",FALSE,"visual"
"228","blank.png",0,"B","",NA,"None",NA,3,5,"f002",FALSE,"visual"
"229","Alien1.bmp",265,"S","",NA,"None",NA,3,5,"f002",FALSE,"visual"
"230","Alien2.bmp",266,"S","",NA,"3",0.975452458486,3,5,"f002",FALSE,"visual"
"231","Alien3.bmp",267,"S","",NA,"None",NA,3,5,"f002",FALSE,"visual"
"232","Alien10.bmp",268,"S","",NA,"None",NA,3,5,"f002",FALSE,"visual"
"233","Alien11.bmp",269,"S","",NA,"None",NA,3,5,"f002",FALSE,"visual"
"234","Alien12.bmp",270,"S","",NA,"None",NA,3,5,"f002",FALSE,"visual"
"235","Alien4.bmp",271,"S","",NA,"None",NA,3,5,"f002",FALSE,"visual"
"236","Alien5.bmp",272,"S","",NA,"None",NA,3,5,"f002",FALSE,"visual"
"237","Alien6.bmp",273,"S","",NA,"None",NA,3,5,"f002",FALSE,"visual"
"238","Alien1.bmp",274,"S","",NA,"None",NA,3,5,"f002",FALSE,"visual"
"239","Alien2.bmp",275,"S","",NA,"None",NA,3,5,"f002",FALSE,"visual"
"240","Alien3.bmp",276,"S","",NA,"3",0.0169164701365,3,5,"f002",FALSE,"visual"
"241","Alien10.bmp",277,"S","",NA,"None",NA,3,5,"f002",FALSE,"visual"
"242","Alien11.bmp",278,"S","",NA,"None",NA,3,5,"f002",FALSE,"visual"
"243","Alien12.bmp",279,"S","",NA,"None",NA,3,5,"f002",FALSE,"visual"
"244","Alien7.bmp",280,"S","",NA,"None",NA,3,5,"f002",FALSE,"visual"
"245","Alien8.bmp",281,"S","",NA,"None",NA,3,5,"f002",FALSE,"visual"
"246","Alien9.bmp",282,"S","",NA,"None",NA,3,5,"f002",FALSE,"visual"
"247","Alien4.bmp",283,"S","",NA,"None",NA,3,5,"f002",FALSE,"visual"
"248","Alien5.bmp",284,"S","",NA,"None",NA,3,5,"f002",FALSE,"visual"
"249","Alien6.bmp",285,"S","",NA,"None",NA,3,5,"f002",FALSE,"visual"
"250","Alien1.bmp",286,"S","",NA,"None",NA,3,5,"f002",FALSE,"visual"
"251","Alien2.bmp",287,"S","",NA,"None",NA,3,5,"f002",FALSE,"visual"
"252","Alien3.bmp",288,"S","",NA,"3",0.0335371186957,3,5,"f002",FALSE,"visual"
"253","blank.png",0,"B","",NA,"None",NA,3,5,"f002",FALSE,"visual"
"254","blank.png",0,"B","",NA,"None",NA,3,5,"f002",FALSE,"visual"
"255","blank.png",0,"B","",NA,"None",NA,3,5,"f002",FALSE,"visual"
"256","blank.png",0,"B","",NA,"None",NA,3,5,"f002",FALSE,"visual"
"257","blank.png",0,"B","",NA,"None",NA,3,5,"f002",FALSE,"visual"
"258","blank.png",0,"B","",NA,"None",NA,3,5,"f002",FALSE,"visual"
"259","blank.png",0,"B","",NA,"None",NA,3,5,"f002",FALSE,"visual"
"260","blank.png",0,"B","",NA,"None",NA,3,5,"f002",FALSE,"visual"
"261","blank.png",0,"B","",NA,"None",NA,3,5,"f002",FALSE,"visual"
"262","blank.png",0,"B","",NA,"None",NA,3,5,"f002",FALSE,"visual"
"263","blank.png",0,"B","",NA,"None",NA,3,5,"f002",FALSE,"visual"
"264","blank.png",0,"B","",NA,"None",NA,3,5,"f002",FALSE,"visual"
"265","Alien4.bmp",289,"S","",NA,"None",NA,3,5,"f002",FALSE,"visual"
"266","Alien5.bmp",290,"S","",NA,"None",NA,3,5,"f002",FALSE,"visual"
"267","Alien6.bmp",291,"S","",NA,"None",NA,3,5,"f002",FALSE,"visual"
"268","Alien1.bmp",292,"S","",NA,"None",NA,3,5,"f002",FALSE,"visual"
"269","Alien2.bmp",293,"S","",NA,"None",NA,3,5,"f002",FALSE,"visual"
"270","Alien3.bmp",294,"S","",NA,"3",0.0503693935461,3,5,"f002",FALSE,"visual"
"271","Alien10.bmp",295,"S","",NA,"None",NA,3,5,"f002",FALSE,"visual"
"272","Alien11.bmp",296,"S","",NA,"None",NA,3,5,"f002",FALSE,"visual"
"273","Alien12.bmp",297,"S","",NA,"None",NA,3,5,"f002",FALSE,"visual"
"274","Alien4.bmp",298,"S","",NA,"None",NA,3,5,"f002",FALSE,"visual"
"275","Alien5.bmp",299,"S","",NA,"None",NA,3,5,"f002",FALSE,"visual"
"276","Alien6.bmp",300,"S","",NA,"None",NA,3,5,"f002",FALSE,"visual"
"277","Alien7.bmp",301,"S","",NA,"None",NA,3,5,"f002",FALSE,"visual"
"278","Alien8.bmp",302,"S","",NA,"None",NA,3,5,"f002",FALSE,"visual"
"279","Alien9.bmp",303,"S","",NA,"None",NA,3,5,"f002",FALSE,"visual"
"280","Alien1.bmp",304,"S","",NA,"None",NA,3,5,"f002",FALSE,"visual"
"281","Alien2.bmp",305,"S","",NA,"None",NA,3,5,"f002",FALSE,"visual"
"282","Alien3.bmp",306,"S","",NA,"3",0.0669564772397,3,5,"f002",FALSE,"visual"
"283","Alien10.bmp",307,"S","",NA,"None",NA,3,5,"f002",FALSE,"visual"
"284","Alien11.bmp",308,"S","",NA,"None",NA,3,5,"f002",FALSE,"visual"
"285","Alien12.bmp",309,"S","",NA,"None",NA,3,5,"f002",FALSE,"visual"
"286","Alien4.bmp",310,"S","",NA,"None",NA,3,5,"f002",FALSE,"visual"
"287","Alien5.bmp",311,"S","",NA,"None",NA,3,5,"f002",FALSE,"visual"
"288","Alien6.bmp",312,"S","",NA,"None",NA,3,5,"f002",FALSE,"visual"
"289","Alien7.bmp",313,"S","",NA,"None",NA,3,5,"f002",FALSE,"visual"
"290","Alien8.bmp",314,"S","",NA,"None",NA,3,5,"f002",FALSE,"visual"
"291","Alien9.bmp",315,"S","",NA,"None",NA,3,5,"f002",FALSE,"visual"
"292","Alien1.bmp",316,"S","",NA,"None",NA,3,5,"f002",FALSE,"visual"
"293","Alien2.bmp",317,"S","",NA,"3",0.983658960089,3,5,"f002",FALSE,"visual"
"294","Alien3.bmp",318,"S","",NA,"None",NA,3,5,"f002",FALSE,"visual"
"295","Alien7.bmp",319,"S","",NA,"None",NA,3,5,"f002",FALSE,"visual"
"296","Alien8.bmp",320,"S","",NA,"None",NA,3,5,"f002",FALSE,"visual"
"297","Alien9.bmp",321,"S","",NA,"None",NA,3,5,"f002",FALSE,"visual"
"298","Alien10.bmp",322,"S","",NA,"None",NA,3,5,"f002",FALSE,"visual"
"299","Alien11.bmp",323,"S","",NA,"None",NA,3,5,"f002",FALSE,"visual"
"300","Alien12.bmp",324,"S","",NA,"None",NA,3,5,"f002",FALSE,"visual"
"301","Alien4.bmp",325,"S","",NA,"None",NA,3,5,"f002",FALSE,"visual"
"302","Alien5.bmp",326,"S","",NA,"None",NA,3,5,"f002",FALSE,"visual"
"303","Alien6.bmp",327,"S","",NA,"None",NA,3,5,"f002",FALSE,"visual"
"304","Alien10.bmp",328,"S","",NA,"None",NA,3,5,"f002",FALSE,"visual"
"305","Alien11.bmp",329,"S","",NA,"None",NA,3,5,"f002",FALSE,"visual"
"306","Alien12.bmp",330,"S","",NA,"None",NA,3,5,"f002",FALSE,"visual"
"307","Alien4.bmp",331,"S","",NA,"None",NA,3,5,"f002",FALSE,"visual"
"308","Alien5.bmp",332,"S","",NA,"None",NA,3,5,"f002",FALSE,"visual"
"309","Alien6.bmp",333,"S","",NA,"None",NA,3,5,"f002",FALSE,"visual"
"310","Alien7.bmp",334,"S","",NA,"None",NA,3,5,"f002",FALSE,"visual"
"311","Alien8.bmp",335,"S","",NA,"None",NA,3,5,"f002",FALSE,"visual"
"312","Alien9.bmp",336,"S","",NA,"None",NA,3,5,"f002",FALSE,"visual"
"313","blank.png",0,"B","",NA,"None",NA,3,5,"f002",FALSE,"visual"
"314","blank.png",0,"B","",NA,"None",NA,3,5,"f002",FALSE,"visual"
"315","blank.png",0,"B","",NA,"None",NA,3,5,"f002",FALSE,"visual"
"316","blank.png",0,"B","",NA,"None",NA,3,5,"f002",FALSE,"visual"
"317","blank.png",0,"B","",NA,"None",NA,3,5,"f002",FALSE,"visual"
"318","blank.png",0,"B","",NA,"None",NA,3,5,"f002",FALSE,"visual"
"319","blank.png",0,"B","",NA,"None",NA,3,5,"f002",FALSE,"visual"
"320","blank.png",0,"B","",NA,"None",NA,3,5,"f002",FALSE,"visual"
"321","blank.png",0,"B","",NA,"None",NA,3,5,"f002",FALSE,"visual"
"322","blank.png",0,"B","",NA,"None",NA,3,5,"f002",FALSE,"visual"
"323","blank.png",0,"B","",NA,"None",NA,3,5,"f002",FALSE,"visual"
"324","blank.png",0,"B","",NA,"None",NA,3,5,"f002",FALSE,"visual"
"325","D.png",337,"R","None",NA,"",NA,3,5,"f002",FALSE,"visual"
"326","L.png",338,"R","None",NA,"",NA,3,5,"f002",FALSE,"visual"
"327","A.png",339,"R","None",NA,"",NA,3,5,"f002",FALSE,"visual"
"328","H.png",340,"R","None",NA,"",NA,3,5,"f002",FALSE,"visual"
"329","B.png",341,"R","None",NA,"",NA,3,5,"f002",FALSE,"visual"
"330","G.png",342,"R","None",NA,"",NA,3,5,"f002",FALSE,"visual"
"331","F.png",343,"R","3",0.675442531239,"",NA,3,5,"f002",FALSE,"visual"
"332","M.png",344,"R","None",NA,"",NA,3,5,"f002",FALSE,"visual"
"333","E.png",345,"R","None",NA,"",NA,3,5,"f002",FALSE,"visual"
"334","B.png",346,"R","None",NA,"",NA,3,5,"f002",FALSE,"visual"
"335","E.png",347,"R","None",NA,"",NA,3,5,"f002",FALSE,"visual"
"336","E.png",348,"R","None",NA,"",NA,3,5,"f002",FALSE,"visual"
"337","K.png",349,"R","None",NA,"",NA,3,5,"f002",FALSE,"visual"
"338","C.png",350,"R","None",NA,"",NA,3,5,"f002",FALSE,"visual"
"339","G.png",351,"R","None",NA,"",NA,3,5,"f002",FALSE,"visual"
"340","M.png",352,"R","None",NA,"",NA,3,5,"f002",FALSE,"visual"
"341","L.png",353,"R","None",NA,"",NA,3,5,"f002",FALSE,"visual"
"342","H.png",354,"R","None",NA,"",NA,3,5,"f002",FALSE,"visual"
"343","L.png",355,"R","None",NA,"",NA,3,5,"f002",FALSE,"visual"
"344","H.png",356,"R","None",NA,"",NA,3,5,"f002",FALSE,"visual"
"345","C.png",357,"R","None",NA,"",NA,3,5,"f002",FALSE,"visual"
"346","D.png",358,"R","None",NA,"",NA,3,5,"f002",FALSE,"visual"
"347","K.png",359,"R","None",NA,"",NA,3,5,"f002",FALSE,"visual"
"348","J.png",360,"R","None",NA,"",NA,3,5,"f002",FALSE,"visual"
"349","J.png",313,"R","None",NA,"",NA,3,5,"f002",FALSE,"visual"
"350","A.png",314,"R","None",NA,"",NA,3,5,"f002",FALSE,"visual"
"351","F.png",315,"R","3",0.400418758858,"",NA,3,5,"f002",FALSE,"visual"
"352","G.png",316,"R","None",NA,"",NA,3,5,"f002",FALSE,"visual"
"353","F.png",317,"R","3",0.750411519781,"",NA,3,5,"f002",FALSE,"visual"
"354","L.png",318,"R","None",NA,"",NA,3,5,"f002",FALSE,"visual"
"355","C.png",319,"R","None",NA,"",NA,3,5,"f002",FALSE,"visual"
"356","K.png",320,"R","None",NA,"",NA,3,5,"f002",FALSE,"visual"
"357","H.png",321,"R","None",NA,"",NA,3,5,"f002",FALSE,"visual"
"358","D.png",322,"R","None",NA,"",NA,3,5,"f002",FALSE,"visual"
"359","E.png",323,"R","None",NA,"",NA,3,5,"f002",FALSE,"visual"
"360","M.png",324,"R","None",NA,"",NA,3,5,"f002",FALSE,"visual"
"361","H.png",325,"R","None",NA,"",NA,3,5,"f002",FALSE,"visual"
"362","M.png",326,"R","None",NA,"",NA,3,5,"f002",FALSE,"visual"
"363","E.png",327,"R","None",NA,"",NA,3,5,"f002",FALSE,"visual"
"364","L.png",328,"R","None",NA,"",NA,3,5,"f002",FALSE,"visual"
"365","K.png",329,"R","None",NA,"",NA,3,5,"f002",FALSE,"visual"
"366","D.png",330,"R","None",NA,"",NA,3,5,"f002",FALSE,"visual"
"367","B.png",331,"R","None",NA,"",NA,3,5,"f002",FALSE,"visual"
"368","G.png",332,"R","None",NA,"",NA,3,5,"f002",FALSE,"visual"
"369","B.png",333,"R","None",NA,"",NA,3,5,"f002",FALSE,"visual"
"370","J.png",334,"R","None",NA,"",NA,3,5,"f002",FALSE,"visual"
"371","C.png",335,"R","None",NA,"",NA,3,5,"f002",FALSE,"visual"
"372","A.png",336,"R","None",NA,"",NA,3,5,"f002",FALSE,"visual"
"373","blank.png",0,"B","",NA,"",NA,3,5,"f002",FALSE,"visual"
"374","blank.png",0,"B","",NA,"",NA,3,5,"f002",FALSE,"visual"
"375","blank.png",0,"B","",NA,"",NA,3,5,"f002",FALSE,"visual"
"376","blank.png",0,"B","",NA,"",NA,3,5,"f002",FALSE,"visual"
"377","blank.png",0,"B","",NA,"",NA,3,5,"f002",FALSE,"visual"
"378","blank.png",0,"B","",NA,"",NA,3,5,"f002",FALSE,"visual"
"379","blank.png",0,"B","",NA,"",NA,3,5,"f002",FALSE,"visual"
"380","blank.png",0,"B","",NA,"",NA,3,5,"f002",FALSE,"visual"
"381","blank.png",0,"B","",NA,"",NA,3,5,"f002",FALSE,"visual"
"382","blank.png",0,"B","",NA,"",NA,3,5,"f002",FALSE,"visual"
"383","blank.png",0,"B","",NA,"",NA,3,5,"f002",FALSE,"visual"
"384","blank.png",0,"B","",NA,"",NA,3,5,"f002",FALSE,"visual"
"385","Alien1.bmp",337,"S","",NA,"None",NA,3,5,"f002",FALSE,"visual"
"386","Alien2.bmp",338,"S","",NA,"None",NA,3,5,"f002",FALSE,"visual"
"387","Alien3.bmp",339,"S","",NA,"3",0.158684069756,3,5,"f002",FALSE,"visual"
"388","Alien10.bmp",340,"S","",NA,"None",NA,3,5,"f002",FALSE,"visual"
"389","Alien11.bmp",341,"S","",NA,"None",NA,3,5,"f002",FALSE,"visual"
"390","Alien12.bmp",342,"S","",NA,"None",NA,3,5,"f002",FALSE,"visual"
"391","Alien4.bmp",343,"S","",NA,"None",NA,3,5,"f002",FALSE,"visual"
"392","Alien5.bmp",344,"S","",NA,"None",NA,3,5,"f002",FALSE,"visual"
"393","Alien6.bmp",345,"S","",NA,"None",NA,3,5,"f002",FALSE,"visual"
"394","Alien7.bmp",346,"S","",NA,"None",NA,3,5,"f002",FALSE,"visual"
"395","Alien8.bmp",347,"S","",NA,"None",NA,3,5,"f002",FALSE,"visual"
"396","Alien9.bmp",348,"S","",NA,"None",NA,3,5,"f002",FALSE,"visual"
"397","Alien1.bmp",349,"S","",NA,"None",NA,3,5,"f002",FALSE,"visual"
"398","Alien2.bmp",350,"S","",NA,"None",NA,3,5,"f002",FALSE,"visual"
"399","Alien3.bmp",351,"S","",NA,"3",0.125177102163,3,5,"f002",FALSE,"visual"
"400","Alien7.bmp",352,"S","",NA,"None",NA,3,5,"f002",FALSE,"visual"
"401","Alien8.bmp",353,"S","",NA,"None",NA,3,5,"f002",FALSE,"visual"
"402","Alien9.bmp",354,"S","",NA,"None",NA,3,5,"f002",FALSE,"visual"
"403","Alien4.bmp",355,"S","",NA,"None",NA,3,5,"f002",FALSE,"visual"
"404","Alien5.bmp",356,"S","",NA,"None",NA,3,5,"f002",FALSE,"visual"
"405","Alien6.bmp",357,"S","",NA,"None",NA,3,5,"f002",FALSE,"visual"
"406","Alien10.bmp",358,"S","",NA,"None",NA,3,5,"f002",FALSE,"visual"
"407","Alien11.bmp",359,"S","",NA,"None",NA,3,5,"f002",FALSE,"visual"
"408","Alien12.bmp",360,"S","",NA,"None",NA,3,5,"f002",FALSE,"visual"
"409","blank.png",0,"B","",NA,"None",NA,3,5,"f002",FALSE,"visual"
"410","blank.png",0,"B","",NA,"None",NA,3,5,"f002",FALSE,"visual"
"411","blank.png",0,"B","",NA,"None",NA,3,5,"f002",FALSE,"visual"
"412","blank.png",0,"B","",NA,"None",NA,3,5,"f002",FALSE,"visual"
"413","blank.png",0,"B","",NA,"None",NA,3,5,"f002",FALSE,"visual"
"414","blank.png",0,"B","",NA,"None",NA,3,5,"f002",FALSE,"visual"
"415","blank.png",0,"B","",NA,"None",NA,3,5,"f002",FALSE,"visual"
"416","blank.png",0,"B","",NA,"None",NA,3,5,"f002",FALSE,"visual"
"417","blank.png",0,"B","",NA,"None",NA,3,5,"f002",FALSE,"visual"
"418","blank.png",0,"B","",NA,"None",NA,3,5,"f002",FALSE,"visual"
"419","blank.png",0,"B","",NA,"None",NA,3,5,"f002",FALSE,"visual"
"420","blank.png",0,"B","",NA,"None",NA,3,5,"f002",FALSE,"visual"
"421","Alien1.bmp",361,"S","",NA,"None",NA,3,5,"f002",FALSE,"visual"
"422","Alien2.bmp",362,"S","",NA,"None",NA,3,5,"f002",FALSE,"visual"
"423","Alien3.bmp",363,"S","",NA,"3",0.0586296557449,3,5,"f002",FALSE,"visual"
"424","Alien4.bmp",364,"S","",NA,"None",NA,3,5,"f002",FALSE,"visual"
"425","Alien5.bmp",365,"S","",NA,"None",NA,3,5,"f002",FALSE,"visual"
"426","Alien6.bmp",366,"S","",NA,"None",NA,3,5,"f002",FALSE,"visual"
"427","Alien7.bmp",367,"S","",NA,"None",NA,3,5,"f002",FALSE,"visual"
"428","Alien8.bmp",368,"S","",NA,"None",NA,3,5,"f002",FALSE,"visual"
"429","Alien9.bmp",369,"S","",NA,"None",NA,3,5,"f002",FALSE,"visual"
"430","Alien10.bmp",370,"S","",NA,"None",NA,3,5,"f002",FALSE,"visual"
"431","Alien11.bmp",371,"S","",NA,"None",NA,3,5,"f002",FALSE,"visual"
"432","Alien12.bmp",372,"S","",NA,"None",NA,3,5,"f002",FALSE,"visual"
"433","Alien1.bmp",373,"S","",NA,"None",NA,3,5,"f002",FALSE,"visual"
"434","Alien2.bmp",374,"S","",NA,"None",NA,3,5,"f002",FALSE,"visual"
"435","Alien3.bmp",375,"S","",NA,"3",0.0585969444364,3,5,"f002",FALSE,"visual"
"436","Alien7.bmp",376,"S","",NA,"None",NA,3,5,"f002",FALSE,"visual"
"437","Alien8.bmp",377,"S","",NA,"None",NA,3,5,"f002",FALSE,"visual"
"438","Alien9.bmp",378,"S","",NA,"None",NA,3,5,"f002",FALSE,"visual"
"439","Alien10.bmp",382,"S","",NA,"None",NA,3,5,"f002",FALSE,"visual"
"440","Alien11.bmp",383,"S","",NA,"None",NA,3,5,"f002",FALSE,"visual"
"441","Alien12.bmp",384,"S","",NA,"None",NA,3,5,"f002",FALSE,"visual"
"442","Alien1.bmp",388,"S","",NA,"None",NA,3,5,"f002",FALSE,"visual"
"443","Alien2.bmp",389,"S","",NA,"None",NA,3,5,"f002",FALSE,"visual"
"444","Alien3.bmp",390,"S","",NA,"3",0.158553509973,3,5,"f002",FALSE,"visual"
"445","H.png",361,"R","None",NA,"",NA,3,5,"f002",FALSE,"visual"
"446","B.png",362,"R","None",NA,"",NA,3,5,"f002",FALSE,"visual"
"447","C.png",363,"R","None",NA,"",NA,3,5,"f002",FALSE,"visual"
"448","G.png",364,"R","None",NA,"",NA,3,5,"f002",FALSE,"visual"
"449","D.png",365,"R","None",NA,"",NA,3,5,"f002",FALSE,"visual"
"450","A.png",366,"R","None",NA,"",NA,3,5,"f002",FALSE,"visual"
"451","E.png",367,"R","None",NA,"",NA,3,5,"f002",FALSE,"visual"
"452","L.png",368,"R","None",NA,"",NA,3,5,"f002",FALSE,"visual"
"453","J.png",369,"R","None",NA,"",NA,3,5,"f002",FALSE,"visual"
"454","E.png",370,"R","None",NA,"",NA,3,5,"f002",FALSE,"visual"
"455","L.png",371,"R","None",NA,"",NA,3,5,"f002",FALSE,"visual"
"456","A.png",372,"R","None",NA,"",NA,3,5,"f002",FALSE,"visual"
"457","C.png",373,"R","None",NA,"",NA,3,5,"f002",FALSE,"visual"
"458","G.png",374,"R","None",NA,"",NA,3,5,"f002",FALSE,"visual"
"459","M.png",375,"R","None",NA,"",NA,3,5,"f002",FALSE,"visual"
"460","H.png",376,"R","None",NA,"",NA,3,5,"f002",FALSE,"visual"
"461","A.png",377,"R","None",NA,"",NA,3,5,"f002",FALSE,"visual"
"462","F.png",378,"R","3",0.533659002744,"",NA,3,5,"f002",FALSE,"visual"
"463","F.png",379,"R","3",0.583704698831,"",NA,3,5,"f002",FALSE,"visual"
"464","K.png",380,"R","None",NA,"",NA,3,5,"f002",FALSE,"visual"
"465","D.png",381,"R","None",NA,"",NA,3,5,"f002",FALSE,"visual"
"466","J.png",382,"R","None",NA,"",NA,3,5,"f002",FALSE,"visual"
"467","F.png",383,"R","3",0.567178201862,"",NA,3,5,"f002",FALSE,"visual"
"468","J.png",384,"R","None",NA,"",NA,3,5,"f002",FALSE,"visual"
