"","image","trialnum","condition","l_block_trial_key_resp.keys","l_block_trial_key_resp.rt","v_block_trial_key_resp.keys","v_block_trial_key_resp.rt","vtarget","Run","PartID","ltarget","expName"
"1","M.png",1,"S","None",NA,"",NA,3,1,"f002",FALSE,"visual"
"2","K.png",2,"S","None",NA,"",NA,3,1,"f002",FALSE,"visual"
"3","B.png",3,"S","None",NA,"",NA,3,1,"f002",FALSE,"visual"
"4","A.png",4,"S","None",NA,"",NA,3,1,"f002",FALSE,"visual"
"5","J.png",5,"S","None",NA,"",NA,3,1,"f002",FALSE,"visual"
"6","F.png",6,"S","4",0.542052669451,"",NA,3,1,"f002",FALSE,"visual"
"7","D.png",7,"S","None",NA,"",NA,3,1,"f002",FALSE,"visual"
"8","G.png",8,"S","None",NA,"",NA,3,1,"f002",FALSE,"visual"
"9","C.png",9,"S","None",NA,"",NA,3,1,"f002",FALSE,"visual"
"10","M.png",10,"S","None",NA,"",NA,3,1,"f002",FALSE,"visual"
"11","K.png",11,"S","None",NA,"",NA,3,1,"f002",FALSE,"visual"
"12","B.png",12,"S","None",NA,"",NA,3,1,"f002",FALSE,"visual"
"13","E.png",13,"S","None",NA,"",NA,3,1,"f002",FALSE,"visual"
"14","L.png",14,"S","None",NA,"",NA,3,1,"f002",FALSE,"visual"
"15","H.png",15,"S","None",NA,"",NA,3,1,"f002",FALSE,"visual"
"16","A.png",16,"S","None",NA,"",NA,3,1,"f002",FALSE,"visual"
"17","J.png",17,"S","None",NA,"",NA,3,1,"f002",FALSE,"visual"
"18","F.png",18,"S","3",0.450384526048,"",NA,3,1,"f002",FALSE,"visual"
"19","D.png",19,"S","None",NA,"",NA,3,1,"f002",FALSE,"visual"
"20","G.png",20,"S","None",NA,"",NA,3,1,"f002",FALSE,"visual"
"21","C.png",21,"S","None",NA,"",NA,3,1,"f002",FALSE,"visual"
"22","M.png",22,"S","None",NA,"",NA,3,1,"f002",FALSE,"visual"
"23","K.png",23,"S","None",NA,"",NA,3,1,"f002",FALSE,"visual"
"24","B.png",24,"S","None",NA,"",NA,3,1,"f002",FALSE,"visual"
"25","E.png",25,"S","None",NA,"",NA,3,1,"f002",FALSE,"visual"
"26","L.png",26,"S","None",NA,"",NA,3,1,"f002",FALSE,"visual"
"27","H.png",27,"S","None",NA,"",NA,3,1,"f002",FALSE,"visual"
"28","A.png",28,"S","None",NA,"",NA,3,1,"f002",FALSE,"visual"
"29","J.png",29,"S","None",NA,"",NA,3,1,"f002",FALSE,"visual"
"30","F.png",30,"S","3",0.483701484744,"",NA,3,1,"f002",FALSE,"visual"
"31","E.png",31,"S","None",NA,"",NA,3,1,"f002",FALSE,"visual"
"32","L.png",32,"S","None",NA,"",NA,3,1,"f002",FALSE,"visual"
"33","H.png",33,"S","None",NA,"",NA,3,1,"f002",FALSE,"visual"
"34","D.png",34,"S","None",NA,"",NA,3,1,"f002",FALSE,"visual"
"35","G.png",35,"S","None",NA,"",NA,3,1,"f002",FALSE,"visual"
"36","C.png",36,"S","None",NA,"",NA,3,1,"f002",FALSE,"visual"
"37","M.png",37,"S","None",NA,"",NA,3,1,"f002",FALSE,"visual"
"38","K.png",38,"S","None",NA,"",NA,3,1,"f002",FALSE,"visual"
"39","B.png",39,"S","None",NA,"",NA,3,1,"f002",FALSE,"visual"
"40","D.png",40,"S","None",NA,"",NA,3,1,"f002",FALSE,"visual"
"41","G.png",41,"S","None",NA,"",NA,3,1,"f002",FALSE,"visual"
"42","C.png",42,"S","None",NA,"",NA,3,1,"f002",FALSE,"visual"
"43","M.png",43,"S","None",NA,"",NA,3,1,"f002",FALSE,"visual"
"44","K.png",44,"S","None",NA,"",NA,3,1,"f002",FALSE,"visual"
"45","B.png",45,"S","None",NA,"",NA,3,1,"f002",FALSE,"visual"
"46","E.png",46,"S","None",NA,"",NA,3,1,"f002",FALSE,"visual"
"47","L.png",47,"S","None",NA,"",NA,3,1,"f002",FALSE,"visual"
"48","H.png",48,"S","None",NA,"",NA,3,1,"f002",FALSE,"visual"
"49","blank.png",0,"B","",NA,"",NA,3,1,"f002",FALSE,"visual"
"50","blank.png",0,"B","",NA,"",NA,3,1,"f002",FALSE,"visual"
"51","blank.png",0,"B","",NA,"",NA,3,1,"f002",FALSE,"visual"
"52","blank.png",0,"B","",NA,"",NA,3,1,"f002",FALSE,"visual"
"53","blank.png",0,"B","",NA,"",NA,3,1,"f002",FALSE,"visual"
"54","blank.png",0,"B","",NA,"",NA,3,1,"f002",FALSE,"visual"
"55","blank.png",0,"B","",NA,"",NA,3,1,"f002",FALSE,"visual"
"56","blank.png",0,"B","",NA,"",NA,3,1,"f002",FALSE,"visual"
"57","blank.png",0,"B","",NA,"",NA,3,1,"f002",FALSE,"visual"
"58","blank.png",0,"B","",NA,"",NA,3,1,"f002",FALSE,"visual"
"59","blank.png",0,"B","",NA,"",NA,3,1,"f002",FALSE,"visual"
"60","blank.png",0,"B","",NA,"",NA,3,1,"f002",FALSE,"visual"
"61","A.png",49,"S","None",NA,"",NA,3,1,"f002",FALSE,"visual"
"62","J.png",50,"S","None",NA,"",NA,3,1,"f002",FALSE,"visual"
"63","F.png",51,"S","3",0.483762640506,"",NA,3,1,"f002",FALSE,"visual"
"64","D.png",52,"S","None",NA,"",NA,3,1,"f002",FALSE,"visual"
"65","G.png",53,"S","None",NA,"",NA,3,1,"f002",FALSE,"visual"
"66","C.png",54,"S","None",NA,"",NA,3,1,"f002",FALSE,"visual"
"67","M.png",55,"S","None",NA,"",NA,3,1,"f002",FALSE,"visual"
"68","K.png",56,"S","None",NA,"",NA,3,1,"f002",FALSE,"visual"
"69","B.png",57,"S","None",NA,"",NA,3,1,"f002",FALSE,"visual"
"70","E.png",58,"S","None",NA,"",NA,3,1,"f002",FALSE,"visual"
"71","L.png",59,"S","None",NA,"",NA,3,1,"f002",FALSE,"visual"
"72","H.png",60,"S","None",NA,"",NA,3,1,"f002",FALSE,"visual"
"73","A.png",61,"S","None",NA,"",NA,3,1,"f002",FALSE,"visual"
"74","J.png",62,"S","None",NA,"",NA,3,1,"f002",FALSE,"visual"
"75","F.png",63,"S","3",0.442013899796,"",NA,3,1,"f002",FALSE,"visual"
"76","E.png",64,"S","None",NA,"",NA,3,1,"f002",FALSE,"visual"
"77","L.png",65,"S","None",NA,"",NA,3,1,"f002",FALSE,"visual"
"78","H.png",66,"S","None",NA,"",NA,3,1,"f002",FALSE,"visual"
"79","M.png",67,"S","None",NA,"",NA,3,1,"f002",FALSE,"visual"
"80","K.png",68,"S","None",NA,"",NA,3,1,"f002",FALSE,"visual"
"81","B.png",69,"S","None",NA,"",NA,3,1,"f002",FALSE,"visual"
"82","D.png",70,"S","None",NA,"",NA,3,1,"f002",FALSE,"visual"
"83","G.png",71,"S","None",NA,"",NA,3,1,"f002",FALSE,"visual"
"84","C.png",72,"S","None",NA,"",NA,3,1,"f002",FALSE,"visual"
"85","blank.png",0,"B","",NA,"",NA,3,1,"f002",FALSE,"visual"
"86","blank.png",0,"B","",NA,"",NA,3,1,"f002",FALSE,"visual"
"87","blank.png",0,"B","",NA,"",NA,3,1,"f002",FALSE,"visual"
"88","blank.png",0,"B","",NA,"",NA,3,1,"f002",FALSE,"visual"
"89","blank.png",0,"B","",NA,"",NA,3,1,"f002",FALSE,"visual"
"90","blank.png",0,"B","",NA,"",NA,3,1,"f002",FALSE,"visual"
"91","blank.png",0,"B","",NA,"",NA,3,1,"f002",FALSE,"visual"
"92","blank.png",0,"B","",NA,"",NA,3,1,"f002",FALSE,"visual"
"93","blank.png",0,"B","",NA,"",NA,3,1,"f002",FALSE,"visual"
"94","blank.png",0,"B","",NA,"",NA,3,1,"f002",FALSE,"visual"
"95","blank.png",0,"B","",NA,"",NA,3,1,"f002",FALSE,"visual"
"96","blank.png",0,"B","",NA,"",NA,3,1,"f002",FALSE,"visual"
"97","Alien9.bmp",1,"R","",NA,"None",NA,3,1,"f002",FALSE,"visual"
"98","Alien6.bmp",2,"R","",NA,"None",NA,3,1,"f002",FALSE,"visual"
"99","Alien5.bmp",3,"R","",NA,"None",NA,3,1,"f002",FALSE,"visual"
"100","Alien12.bmp",4,"R","",NA,"None",NA,3,1,"f002",FALSE,"visual"
"101","Alien2.bmp",5,"R","",NA,"None",NA,3,1,"f002",FALSE,"visual"
"102","Alien3.bmp",6,"R","",NA,"3",0.450376277324,3,1,"f002",FALSE,"visual"
"103","Alien5.bmp",7,"R","",NA,"None",NA,3,1,"f002",FALSE,"visual"
"104","Alien11.bmp",8,"R","",NA,"None",NA,3,1,"f002",FALSE,"visual"
"105","Alien8.bmp",9,"R","",NA,"None",NA,3,1,"f002",FALSE,"visual"
"106","Alien4.bmp",10,"R","",NA,"None",NA,3,1,"f002",FALSE,"visual"
"107","Alien12.bmp",11,"R","",NA,"None",NA,3,1,"f002",FALSE,"visual"
"108","Alien10.bmp",12,"R","",NA,"None",NA,3,1,"f002",FALSE,"visual"
"109","Alien6.bmp",13,"R","",NA,"None",NA,3,1,"f002",FALSE,"visual"
"110","Alien5.bmp",14,"R","",NA,"None",NA,3,1,"f002",FALSE,"visual"
"111","Alien1.bmp",15,"R","",NA,"None",NA,3,1,"f002",FALSE,"visual"
"112","Alien1.bmp",16,"R","",NA,"None",NA,3,1,"f002",FALSE,"visual"
"113","Alien11.bmp",17,"R","",NA,"None",NA,3,1,"f002",FALSE,"visual"
"114","Alien10.bmp",18,"R","",NA,"None",NA,3,1,"f002",FALSE,"visual"
"115","Alien3.bmp",19,"R","",NA,"3",0.392019403633,3,1,"f002",FALSE,"visual"
"116","Alien2.bmp",20,"R","",NA,"None",NA,3,1,"f002",FALSE,"visual"
"117","Alien6.bmp",21,"R","",NA,"None",NA,3,1,"f002",FALSE,"visual"
"118","Alien4.bmp",22,"R","",NA,"None",NA,3,1,"f002",FALSE,"visual"
"119","Alien7.bmp",23,"R","",NA,"None",NA,3,1,"f002",FALSE,"visual"
"120","Alien4.bmp",24,"R","",NA,"None",NA,3,1,"f002",FALSE,"visual"
"121","Alien8.bmp",25,"R","",NA,"None",NA,3,1,"f002",FALSE,"visual"
"122","Alien6.bmp",26,"R","",NA,"None",NA,3,1,"f002",FALSE,"visual"
"123","Alien5.bmp",27,"R","",NA,"None",NA,3,1,"f002",FALSE,"visual"
"124","Alien8.bmp",28,"R","",NA,"None",NA,3,1,"f002",FALSE,"visual"
"125","Alien6.bmp",29,"R","",NA,"None",NA,3,1,"f002",FALSE,"visual"
"126","Alien5.bmp",30,"R","",NA,"None",NA,3,1,"f002",FALSE,"visual"
"127","Alien10.bmp",31,"R","",NA,"None",NA,3,1,"f002",FALSE,"visual"
"128","Alien12.bmp",32,"R","",NA,"None",NA,3,1,"f002",FALSE,"visual"
"129","Alien2.bmp",33,"R","",NA,"None",NA,3,1,"f002",FALSE,"visual"
"130","Alien11.bmp",34,"R","",NA,"None",NA,3,1,"f002",FALSE,"visual"
"131","Alien7.bmp",35,"R","",NA,"None",NA,3,1,"f002",FALSE,"visual"
"132","Alien9.bmp",36,"R","",NA,"None",NA,3,1,"f002",FALSE,"visual"
"133","Alien4.bmp",37,"R","",NA,"None",NA,3,1,"f002",FALSE,"visual"
"134","Alien12.bmp",38,"R","",NA,"None",NA,3,1,"f002",FALSE,"visual"
"135","Alien8.bmp",39,"R","",NA,"None",NA,3,1,"f002",FALSE,"visual"
"136","Alien11.bmp",40,"R","",NA,"None",NA,3,1,"f002",FALSE,"visual"
"137","Alien3.bmp",41,"R","",NA,"3",0.55038916273,3,1,"f002",FALSE,"visual"
"138","Alien9.bmp",42,"R","",NA,"None",NA,3,1,"f002",FALSE,"visual"
"139","Alien4.bmp",43,"R","",NA,"None",NA,3,1,"f002",FALSE,"visual"
"140","Alien1.bmp",44,"R","",NA,"None",NA,3,1,"f002",FALSE,"visual"
"141","Alien10.bmp",45,"R","",NA,"None",NA,3,1,"f002",FALSE,"visual"
"142","Alien7.bmp",46,"R","",NA,"None",NA,3,1,"f002",FALSE,"visual"
"143","Alien7.bmp",47,"R","",NA,"None",NA,3,1,"f002",FALSE,"visual"
"144","Alien9.bmp",48,"R","",NA,"None",NA,3,1,"f002",FALSE,"visual"
"145","blank.png",0,"B","",NA,"None",NA,3,1,"f002",FALSE,"visual"
"146","blank.png",0,"B","",NA,"None",NA,3,1,"f002",FALSE,"visual"
"147","blank.png",0,"B","",NA,"None",NA,3,1,"f002",FALSE,"visual"
"148","blank.png",0,"B","",NA,"None",NA,3,1,"f002",FALSE,"visual"
"149","blank.png",0,"B","",NA,"None",NA,3,1,"f002",FALSE,"visual"
"150","blank.png",0,"B","",NA,"None",NA,3,1,"f002",FALSE,"visual"
"151","blank.png",0,"B","",NA,"None",NA,3,1,"f002",FALSE,"visual"
"152","blank.png",0,"B","",NA,"None",NA,3,1,"f002",FALSE,"visual"
"153","blank.png",0,"B","",NA,"None",NA,3,1,"f002",FALSE,"visual"
"154","blank.png",0,"B","",NA,"None",NA,3,1,"f002",FALSE,"visual"
"155","blank.png",0,"B","",NA,"None",NA,3,1,"f002",FALSE,"visual"
"156","blank.png",0,"B","",NA,"None",NA,3,1,"f002",FALSE,"visual"
"157","Alien7.bmp",49,"R","",NA,"None",NA,3,1,"f002",FALSE,"visual"
"158","Alien1.bmp",50,"R","",NA,"None",NA,3,1,"f002",FALSE,"visual"
"159","Alien3.bmp",51,"R","",NA,"3",0.542072865181,3,1,"f002",FALSE,"visual"
"160","Alien10.bmp",52,"R","",NA,"None",NA,3,1,"f002",FALSE,"visual"
"161","Alien4.bmp",53,"R","",NA,"None",NA,3,1,"f002",FALSE,"visual"
"162","Alien5.bmp",54,"R","",NA,"None",NA,3,1,"f002",FALSE,"visual"
"163","Alien12.bmp",55,"R","",NA,"None",NA,3,1,"f002",FALSE,"visual"
"164","Alien11.bmp",56,"R","",NA,"None",NA,3,1,"f002",FALSE,"visual"
"165","Alien9.bmp",57,"R","",NA,"None",NA,3,1,"f002",FALSE,"visual"
"166","Alien10.bmp",58,"R","",NA,"None",NA,3,1,"f002",FALSE,"visual"
"167","Alien2.bmp",59,"R","",NA,"None",NA,3,1,"f002",FALSE,"visual"
"168","Alien8.bmp",60,"R","",NA,"None",NA,3,1,"f002",FALSE,"visual"
"169","Alien7.bmp",61,"R","",NA,"None",NA,3,1,"f002",FALSE,"visual"
"170","Alien5.bmp",62,"R","",NA,"None",NA,3,1,"f002",FALSE,"visual"
"171","Alien11.bmp",63,"R","",NA,"None",NA,3,1,"f002",FALSE,"visual"
"172","Alien12.bmp",64,"R","",NA,"None",NA,3,1,"f002",FALSE,"visual"
"173","Alien1.bmp",65,"R","",NA,"None",NA,3,1,"f002",FALSE,"visual"
"174","Alien4.bmp",66,"R","",NA,"None",NA,3,1,"f002",FALSE,"visual"
"175","Alien9.bmp",67,"R","",NA,"None",NA,3,1,"f002",FALSE,"visual"
"176","Alien6.bmp",68,"R","",NA,"None",NA,3,1,"f002",FALSE,"visual"
"177","Alien8.bmp",69,"R","",NA,"None",NA,3,1,"f002",FALSE,"visual"
"178","Alien2.bmp",70,"R","",NA,"None",NA,3,1,"f002",FALSE,"visual"
"179","Alien3.bmp",71,"R","",NA,"3",0.442058842164,3,1,"f002",FALSE,"visual"
"180","Alien6.bmp",72,"R","",NA,"None",NA,3,1,"f002",FALSE,"visual"
"181","A.png",73,"S","None",NA,"",NA,3,1,"f002",FALSE,"visual"
"182","J.png",74,"S","None",NA,"",NA,3,1,"f002",FALSE,"visual"
"183","F.png",75,"S","3",0.500323839951,"",NA,3,1,"f002",FALSE,"visual"
"184","M.png",76,"S","None",NA,"",NA,3,1,"f002",FALSE,"visual"
"185","K.png",77,"S","None",NA,"",NA,3,1,"f002",FALSE,"visual"
"186","B.png",78,"S","None",NA,"",NA,3,1,"f002",FALSE,"visual"
"187","E.png",79,"S","None",NA,"",NA,3,1,"f002",FALSE,"visual"
"188","L.png",80,"S","None",NA,"",NA,3,1,"f002",FALSE,"visual"
"189","H.png",81,"S","None",NA,"",NA,3,1,"f002",FALSE,"visual"
"190","D.png",82,"S","None",NA,"",NA,3,1,"f002",FALSE,"visual"
"191","G.png",83,"S","None",NA,"",NA,3,1,"f002",FALSE,"visual"
"192","C.png",84,"S","None",NA,"",NA,3,1,"f002",FALSE,"visual"
"193","A.png",85,"S","None",NA,"",NA,3,1,"f002",FALSE,"visual"
"194","J.png",86,"S","None",NA,"",NA,3,1,"f002",FALSE,"visual"
"195","F.png",87,"S","3",0.375372302253,"",NA,3,1,"f002",FALSE,"visual"
"196","E.png",88,"S","None",NA,"",NA,3,1,"f002",FALSE,"visual"
"197","L.png",89,"S","None",NA,"",NA,3,1,"f002",FALSE,"visual"
"198","H.png",90,"S","None",NA,"",NA,3,1,"f002",FALSE,"visual"
"199","M.png",91,"S","None",NA,"",NA,3,1,"f002",FALSE,"visual"
"200","K.png",92,"S","None",NA,"",NA,3,1,"f002",FALSE,"visual"
"201","B.png",93,"S","None",NA,"",NA,3,1,"f002",FALSE,"visual"
"202","D.png",94,"S","None",NA,"",NA,3,1,"f002",FALSE,"visual"
"203","G.png",95,"S","None",NA,"",NA,3,1,"f002",FALSE,"visual"
"204","C.png",96,"S","None",NA,"",NA,3,1,"f002",FALSE,"visual"
"205","blank.png",0,"B","",NA,"",NA,3,1,"f002",FALSE,"visual"
"206","blank.png",0,"B","",NA,"",NA,3,1,"f002",FALSE,"visual"
"207","blank.png",0,"B","",NA,"",NA,3,1,"f002",FALSE,"visual"
"208","blank.png",0,"B","",NA,"",NA,3,1,"f002",FALSE,"visual"
"209","blank.png",0,"B","",NA,"",NA,3,1,"f002",FALSE,"visual"
"210","blank.png",0,"B","",NA,"",NA,3,1,"f002",FALSE,"visual"
"211","blank.png",0,"B","",NA,"",NA,3,1,"f002",FALSE,"visual"
"212","blank.png",0,"B","",NA,"",NA,3,1,"f002",FALSE,"visual"
"213","blank.png",0,"B","",NA,"",NA,3,1,"f002",FALSE,"visual"
"214","blank.png",0,"B","",NA,"",NA,3,1,"f002",FALSE,"visual"
"215","blank.png",0,"B","",NA,"",NA,3,1,"f002",FALSE,"visual"
"216","blank.png",0,"B","",NA,"",NA,3,1,"f002",FALSE,"visual"
"217","M.png",97,"S","None",NA,"",NA,3,1,"f002",FALSE,"visual"
"218","K.png",98,"S","None",NA,"",NA,3,1,"f002",FALSE,"visual"
"219","B.png",99,"S","None",NA,"",NA,3,1,"f002",FALSE,"visual"
"220","A.png",100,"S","None",NA,"",NA,3,1,"f002",FALSE,"visual"
"221","J.png",101,"S","None",NA,"",NA,3,1,"f002",FALSE,"visual"
"222","F.png",102,"S","3",0.475408227183,"",NA,3,1,"f002",FALSE,"visual"
"223","E.png",103,"S","None",NA,"",NA,3,1,"f002",FALSE,"visual"
"224","L.png",104,"S","None",NA,"",NA,3,1,"f002",FALSE,"visual"
"225","H.png",105,"S","None",NA,"",NA,3,1,"f002",FALSE,"visual"
"226","D.png",106,"S","None",NA,"",NA,3,1,"f002",FALSE,"visual"
"227","G.png",107,"S","None",NA,"",NA,3,1,"f002",FALSE,"visual"
"228","C.png",108,"S","None",NA,"",NA,3,1,"f002",FALSE,"visual"
"229","A.png",109,"S","None",NA,"",NA,3,1,"f002",FALSE,"visual"
"230","J.png",110,"S","None",NA,"",NA,3,1,"f002",FALSE,"visual"
"231","F.png",111,"S","3",0.292080474086,"",NA,3,1,"f002",FALSE,"visual"
"232","M.png",112,"S","None",NA,"",NA,3,1,"f002",FALSE,"visual"
"233","K.png",113,"S","None",NA,"",NA,3,1,"f002",FALSE,"visual"
"234","B.png",114,"S","None",NA,"",NA,3,1,"f002",FALSE,"visual"
"235","D.png",115,"S","None",NA,"",NA,3,1,"f002",FALSE,"visual"
"236","G.png",116,"S","None",NA,"",NA,3,1,"f002",FALSE,"visual"
"237","C.png",117,"S","None",NA,"",NA,3,1,"f002",FALSE,"visual"
"238","E.png",118,"S","None",NA,"",NA,3,1,"f002",FALSE,"visual"
"239","L.png",119,"S","None",NA,"",NA,3,1,"f002",FALSE,"visual"
"240","H.png",120,"S","None",NA,"",NA,3,1,"f002",FALSE,"visual"
"241","Alien7.bmp",73,"R","",NA,"None",NA,3,1,"f002",FALSE,"visual"
"242","Alien6.bmp",74,"R","",NA,"None",NA,3,1,"f002",FALSE,"visual"
"243","Alien2.bmp",75,"R","",NA,"None",NA,3,1,"f002",FALSE,"visual"
"244","Alien8.bmp",76,"R","",NA,"None",NA,3,1,"f002",FALSE,"visual"
"245","Alien8.bmp",77,"R","",NA,"None",NA,3,1,"f002",FALSE,"visual"
"246","Alien3.bmp",78,"R","",NA,"3",0.533705936279,3,1,"f002",FALSE,"visual"
"247","Alien10.bmp",79,"R","",NA,"None",NA,3,1,"f002",FALSE,"visual"
"248","Alien11.bmp",80,"R","",NA,"None",NA,3,1,"f002",FALSE,"visual"
"249","Alien3.bmp",81,"R","",NA,"3",0.575389823411,3,1,"f002",FALSE,"visual"
"250","Alien2.bmp",82,"R","",NA,"None",NA,3,1,"f002",FALSE,"visual"
"251","Alien4.bmp",83,"R","",NA,"None",NA,3,1,"f002",FALSE,"visual"
"252","Alien6.bmp",84,"R","",NA,"None",NA,3,1,"f002",FALSE,"visual"
"253","Alien11.bmp",85,"R","",NA,"None",NA,3,1,"f002",FALSE,"visual"
"254","Alien9.bmp",86,"R","",NA,"None",NA,3,1,"f002",FALSE,"visual"
"255","Alien9.bmp",87,"R","",NA,"None",NA,3,1,"f002",FALSE,"visual"
"256","Alien7.bmp",88,"R","",NA,"None",NA,3,1,"f002",FALSE,"visual"
"257","Alien12.bmp",89,"R","",NA,"None",NA,3,1,"f002",FALSE,"visual"
"258","Alien1.bmp",90,"R","",NA,"None",NA,3,1,"f002",FALSE,"visual"
"259","Alien4.bmp",91,"R","",NA,"None",NA,3,1,"f002",FALSE,"visual"
"260","Alien10.bmp",92,"R","",NA,"None",NA,3,1,"f002",FALSE,"visual"
"261","Alien12.bmp",93,"R","",NA,"None",NA,3,1,"f002",FALSE,"visual"
"262","Alien5.bmp",94,"R","",NA,"None",NA,3,1,"f002",FALSE,"visual"
"263","Alien5.bmp",95,"R","",NA,"None",NA,3,1,"f002",FALSE,"visual"
"264","Alien1.bmp",96,"R","",NA,"None",NA,3,1,"f002",FALSE,"visual"
"265","Alien7.bmp",97,"R","",NA,"None",NA,3,1,"f002",FALSE,"visual"
"266","Alien4.bmp",98,"R","",NA,"None",NA,3,1,"f002",FALSE,"visual"
"267","Alien9.bmp",99,"R","",NA,"None",NA,3,1,"f002",FALSE,"visual"
"268","Alien11.bmp",100,"R","",NA,"None",NA,3,1,"f002",FALSE,"visual"
"269","Alien3.bmp",101,"R","",NA,"3",0.533773065079,3,1,"f002",FALSE,"visual"
"270","Alien5.bmp",102,"R","",NA,"None",NA,3,1,"f002",FALSE,"visual"
"271","Alien8.bmp",103,"R","",NA,"None",NA,3,1,"f002",FALSE,"visual"
"272","Alien12.bmp",104,"R","",NA,"None",NA,3,1,"f002",FALSE,"visual"
"273","Alien9.bmp",105,"R","",NA,"None",NA,3,1,"f002",FALSE,"visual"
"274","Alien8.bmp",106,"R","",NA,"None",NA,3,1,"f002",FALSE,"visual"
"275","Alien5.bmp",107,"R","",NA,"None",NA,3,1,"f002",FALSE,"visual"
"276","Alien1.bmp",108,"R","",NA,"None",NA,3,1,"f002",FALSE,"visual"
"277","Alien10.bmp",109,"R","",NA,"None",NA,3,1,"f002",FALSE,"visual"
"278","Alien12.bmp",110,"R","",NA,"None",NA,3,1,"f002",FALSE,"visual"
"279","Alien2.bmp",111,"R","",NA,"None",NA,3,1,"f002",FALSE,"visual"
"280","Alien10.bmp",112,"R","",NA,"None",NA,3,1,"f002",FALSE,"visual"
"281","Alien7.bmp",113,"R","",NA,"None",NA,3,1,"f002",FALSE,"visual"
"282","Alien6.bmp",114,"R","",NA,"None",NA,3,1,"f002",FALSE,"visual"
"283","Alien2.bmp",115,"R","",NA,"None",NA,3,1,"f002",FALSE,"visual"
"284","Alien4.bmp",116,"R","",NA,"None",NA,3,1,"f002",FALSE,"visual"
"285","Alien6.bmp",117,"R","",NA,"None",NA,3,1,"f002",FALSE,"visual"
"286","Alien3.bmp",118,"R","",NA,"3",0.475303267594,3,1,"f002",FALSE,"visual"
"287","Alien1.bmp",119,"R","",NA,"None",NA,3,1,"f002",FALSE,"visual"
"288","Alien11.bmp",120,"R","",NA,"None",NA,3,1,"f002",FALSE,"visual"
"289","blank.png",0,"B","",NA,"None",NA,3,1,"f002",FALSE,"visual"
"290","blank.png",0,"B","",NA,"None",NA,3,1,"f002",FALSE,"visual"
"291","blank.png",0,"B","",NA,"None",NA,3,1,"f002",FALSE,"visual"
"292","blank.png",0,"B","",NA,"None",NA,3,1,"f002",FALSE,"visual"
"293","blank.png",0,"B","",NA,"None",NA,3,1,"f002",FALSE,"visual"
"294","blank.png",0,"B","",NA,"None",NA,3,1,"f002",FALSE,"visual"
"295","blank.png",0,"B","",NA,"None",NA,3,1,"f002",FALSE,"visual"
"296","blank.png",0,"B","",NA,"None",NA,3,1,"f002",FALSE,"visual"
"297","blank.png",0,"B","",NA,"None",NA,3,1,"f002",FALSE,"visual"
"298","blank.png",0,"B","",NA,"None",NA,3,1,"f002",FALSE,"visual"
"299","blank.png",0,"B","",NA,"None",NA,3,1,"f002",FALSE,"visual"
"300","blank.png",0,"B","",NA,"None",NA,3,1,"f002",FALSE,"visual"
"301","A.png",121,"S","None",NA,"",NA,3,1,"f002",FALSE,"visual"
"302","J.png",122,"S","None",NA,"",NA,3,1,"f002",FALSE,"visual"
"303","F.png",123,"S","3",0.583854032215,"",NA,3,1,"f002",FALSE,"visual"
"304","M.png",124,"S","None",NA,"",NA,3,1,"f002",FALSE,"visual"
"305","K.png",125,"S","None",NA,"",NA,3,1,"f002",FALSE,"visual"
"306","B.png",126,"S","None",NA,"",NA,3,1,"f002",FALSE,"visual"
"307","A.png",127,"S","None",NA,"",NA,3,1,"f002",FALSE,"visual"
"308","J.png",128,"S","None",NA,"",NA,3,1,"f002",FALSE,"visual"
"309","F.png",129,"S","3",0.250319501851,"",NA,3,1,"f002",FALSE,"visual"
"310","E.png",130,"S","None",NA,"",NA,3,1,"f002",FALSE,"visual"
"311","L.png",131,"S","None",NA,"",NA,3,1,"f002",FALSE,"visual"
"312","H.png",132,"S","None",NA,"",NA,3,1,"f002",FALSE,"visual"
"313","D.png",133,"S","None",NA,"",NA,3,1,"f002",FALSE,"visual"
"314","G.png",134,"S","None",NA,"",NA,3,1,"f002",FALSE,"visual"
"315","C.png",135,"S","None",NA,"",NA,3,1,"f002",FALSE,"visual"
"316","E.png",136,"S","None",NA,"",NA,3,1,"f002",FALSE,"visual"
"317","L.png",137,"S","None",NA,"",NA,3,1,"f002",FALSE,"visual"
"318","H.png",138,"S","None",NA,"",NA,3,1,"f002",FALSE,"visual"
"319","D.png",139,"S","None",NA,"",NA,3,1,"f002",FALSE,"visual"
"320","G.png",140,"S","None",NA,"",NA,3,1,"f002",FALSE,"visual"
"321","C.png",141,"S","None",NA,"",NA,3,1,"f002",FALSE,"visual"
"322","A.png",142,"S","None",NA,"",NA,3,1,"f002",FALSE,"visual"
"323","J.png",143,"S","None",NA,"",NA,3,1,"f002",FALSE,"visual"
"324","F.png",144,"S","3",0.00867754174396,"",NA,3,1,"f002",FALSE,"visual"
"325","M.png",145,"S","None",NA,"",NA,3,1,"f002",FALSE,"visual"
"326","K.png",146,"S","None",NA,"",NA,3,1,"f002",FALSE,"visual"
"327","B.png",147,"S","None",NA,"",NA,3,1,"f002",FALSE,"visual"
"328","D.png",148,"S","None",NA,"",NA,3,1,"f002",FALSE,"visual"
"329","G.png",149,"S","None",NA,"",NA,3,1,"f002",FALSE,"visual"
"330","C.png",150,"S","None",NA,"",NA,3,1,"f002",FALSE,"visual"
"331","M.png",151,"S","None",NA,"",NA,3,1,"f002",FALSE,"visual"
"332","K.png",152,"S","None",NA,"",NA,3,1,"f002",FALSE,"visual"
"333","B.png",153,"S","None",NA,"",NA,3,1,"f002",FALSE,"visual"
"334","E.png",154,"S","None",NA,"",NA,3,1,"f002",FALSE,"visual"
"335","L.png",155,"S","None",NA,"",NA,3,1,"f002",FALSE,"visual"
"336","H.png",156,"S","None",NA,"",NA,3,1,"f002",FALSE,"visual"
"337","A.png",157,"S","None",NA,"",NA,3,1,"f002",FALSE,"visual"
"338","J.png",158,"S","3",0.983216933906,"",NA,3,1,"f002",FALSE,"visual"
"339","F.png",159,"S","None",NA,"",NA,3,1,"f002",FALSE,"visual"
"340","M.png",160,"S","None",NA,"",NA,3,1,"f002",FALSE,"visual"
"341","K.png",161,"S","None",NA,"",NA,3,1,"f002",FALSE,"visual"
"342","B.png",162,"S","None",NA,"",NA,3,1,"f002",FALSE,"visual"
"343","E.png",163,"S","None",NA,"",NA,3,1,"f002",FALSE,"visual"
"344","L.png",164,"S","None",NA,"",NA,3,1,"f002",FALSE,"visual"
"345","H.png",165,"S","None",NA,"",NA,3,1,"f002",FALSE,"visual"
"346","A.png",166,"S","None",NA,"",NA,3,1,"f002",FALSE,"visual"
"347","J.png",167,"S","3",0.975322467275,"",NA,3,1,"f002",FALSE,"visual"
"348","F.png",168,"S","None",NA,"",NA,3,1,"f002",FALSE,"visual"
"349","blank.png",0,"B","",NA,"",NA,3,1,"f002",FALSE,"visual"
"350","blank.png",0,"B","",NA,"",NA,3,1,"f002",FALSE,"visual"
"351","blank.png",0,"B","",NA,"",NA,3,1,"f002",FALSE,"visual"
"352","blank.png",0,"B","",NA,"",NA,3,1,"f002",FALSE,"visual"
"353","blank.png",0,"B","",NA,"",NA,3,1,"f002",FALSE,"visual"
"354","blank.png",0,"B","",NA,"",NA,3,1,"f002",FALSE,"visual"
"355","blank.png",0,"B","",NA,"",NA,3,1,"f002",FALSE,"visual"
"356","blank.png",0,"B","",NA,"",NA,3,1,"f002",FALSE,"visual"
"357","blank.png",0,"B","",NA,"",NA,3,1,"f002",FALSE,"visual"
"358","blank.png",0,"B","",NA,"",NA,3,1,"f002",FALSE,"visual"
"359","blank.png",0,"B","",NA,"",NA,3,1,"f002",FALSE,"visual"
"360","blank.png",0,"B","",NA,"",NA,3,1,"f002",FALSE,"visual"
"361","D.png",169,"S","None",NA,"",NA,3,1,"f002",FALSE,"visual"
"362","G.png",170,"S","None",NA,"",NA,3,1,"f002",FALSE,"visual"
"363","C.png",171,"S","None",NA,"",NA,3,1,"f002",FALSE,"visual"
"364","A.png",172,"S","None",NA,"",NA,3,1,"f002",FALSE,"visual"
"365","J.png",173,"S","None",NA,"",NA,3,1,"f002",FALSE,"visual"
"366","F.png",174,"S","3",0.0086513729766,"",NA,3,1,"f002",FALSE,"visual"
"367","M.png",175,"S","None",NA,"",NA,3,1,"f002",FALSE,"visual"
"368","K.png",176,"S","None",NA,"",NA,3,1,"f002",FALSE,"visual"
"369","B.png",177,"S","None",NA,"",NA,3,1,"f002",FALSE,"visual"
"370","D.png",178,"S","None",NA,"",NA,3,1,"f002",FALSE,"visual"
"371","G.png",179,"S","None",NA,"",NA,3,1,"f002",FALSE,"visual"
"372","C.png",180,"S","None",NA,"",NA,3,1,"f002",FALSE,"visual"
"373","E.png",181,"S","None",NA,"",NA,3,1,"f002",FALSE,"visual"
"374","L.png",182,"S","None",NA,"",NA,3,1,"f002",FALSE,"visual"
"375","H.png",183,"S","None",NA,"",NA,3,1,"f002",FALSE,"visual"
"376","D.png",184,"S","None",NA,"",NA,3,1,"f002",FALSE,"visual"
"377","G.png",185,"S","None",NA,"",NA,3,1,"f002",FALSE,"visual"
"378","C.png",186,"S","None",NA,"",NA,3,1,"f002",FALSE,"visual"
"379","A.png",187,"S","None",NA,"",NA,3,1,"f002",FALSE,"visual"
"380","J.png",188,"S","3",0.958968627732,"",NA,3,1,"f002",FALSE,"visual"
"381","F.png",189,"S","None",NA,"",NA,3,1,"f002",FALSE,"visual"
"382","E.png",190,"S","None",NA,"",NA,3,1,"f002",FALSE,"visual"
"383","L.png",191,"S","None",NA,"",NA,3,1,"f002",FALSE,"visual"
"384","H.png",192,"S","None",NA,"",NA,3,1,"f002",FALSE,"visual"
"385","blank.png",0,"B","",NA,"",NA,3,1,"f002",FALSE,"visual"
"386","blank.png",0,"B","",NA,"",NA,3,1,"f002",FALSE,"visual"
"387","blank.png",0,"B","",NA,"",NA,3,1,"f002",FALSE,"visual"
"388","blank.png",0,"B","",NA,"",NA,3,1,"f002",FALSE,"visual"
"389","blank.png",0,"B","",NA,"",NA,3,1,"f002",FALSE,"visual"
"390","blank.png",0,"B","",NA,"",NA,3,1,"f002",FALSE,"visual"
"391","blank.png",0,"B","",NA,"",NA,3,1,"f002",FALSE,"visual"
"392","blank.png",0,"B","",NA,"",NA,3,1,"f002",FALSE,"visual"
"393","blank.png",0,"B","",NA,"",NA,3,1,"f002",FALSE,"visual"
"394","blank.png",0,"B","",NA,"",NA,3,1,"f002",FALSE,"visual"
"395","blank.png",0,"B","",NA,"",NA,3,1,"f002",FALSE,"visual"
"396","blank.png",0,"B","",NA,"",NA,3,1,"f002",FALSE,"visual"
"397","Alien1.bmp",121,"R","",NA,"None",NA,3,1,"f002",FALSE,"visual"
"398","Alien7.bmp",122,"R","",NA,"None",NA,3,1,"f002",FALSE,"visual"
"399","Alien12.bmp",123,"R","",NA,"None",NA,3,1,"f002",FALSE,"visual"
"400","Alien4.bmp",124,"R","",NA,"None",NA,3,1,"f002",FALSE,"visual"
"401","Alien1.bmp",125,"R","",NA,"None",NA,3,1,"f002",FALSE,"visual"
"402","Alien5.bmp",126,"R","",NA,"None",NA,3,1,"f002",FALSE,"visual"
"403","Alien3.bmp",127,"R","",NA,"3",0.450331619475,3,1,"f002",FALSE,"visual"
"404","Alien7.bmp",128,"R","",NA,"None",NA,3,1,"f002",FALSE,"visual"
"405","Alien8.bmp",129,"R","",NA,"None",NA,3,1,"f002",FALSE,"visual"
"406","Alien3.bmp",130,"R","",NA,"3",0.575343743898,3,1,"f002",FALSE,"visual"
"407","Alien3.bmp",131,"R","",NA,"3",0.842099574395,3,1,"f002",FALSE,"visual"
"408","Alien2.bmp",132,"R","",NA,"None",NA,3,1,"f002",FALSE,"visual"
"409","Alien10.bmp",133,"R","",NA,"None",NA,3,1,"f002",FALSE,"visual"
"410","Alien2.bmp",134,"R","",NA,"None",NA,3,1,"f002",FALSE,"visual"
"411","Alien9.bmp",135,"R","",NA,"None",NA,3,1,"f002",FALSE,"visual"
"412","Alien2.bmp",136,"R","",NA,"None",NA,3,1,"f002",FALSE,"visual"
"413","Alien9.bmp",137,"R","",NA,"None",NA,3,1,"f002",FALSE,"visual"
"414","Alien1.bmp",138,"R","",NA,"None",NA,3,1,"f002",FALSE,"visual"
"415","Alien11.bmp",139,"R","",NA,"None",NA,3,1,"f002",FALSE,"visual"
"416","Alien8.bmp",140,"R","",NA,"None",NA,3,1,"f002",FALSE,"visual"
"417","Alien11.bmp",141,"R","",NA,"None",NA,3,1,"f002",FALSE,"visual"
"418","Alien6.bmp",142,"R","",NA,"None",NA,3,1,"f002",FALSE,"visual"
"419","Alien12.bmp",143,"R","",NA,"None",NA,3,1,"f002",FALSE,"visual"
"420","Alien10.bmp",144,"R","",NA,"None",NA,3,1,"f002",FALSE,"visual"
"421","blank.png",0,"B","",NA,"None",NA,3,1,"f002",FALSE,"visual"
"422","blank.png",0,"B","",NA,"None",NA,3,1,"f002",FALSE,"visual"
"423","blank.png",0,"B","",NA,"None",NA,3,1,"f002",FALSE,"visual"
"424","blank.png",0,"B","",NA,"None",NA,3,1,"f002",FALSE,"visual"
"425","blank.png",0,"B","",NA,"None",NA,3,1,"f002",FALSE,"visual"
"426","blank.png",0,"B","",NA,"None",NA,3,1,"f002",FALSE,"visual"
"427","blank.png",0,"B","",NA,"None",NA,3,1,"f002",FALSE,"visual"
"428","blank.png",0,"B","",NA,"None",NA,3,1,"f002",FALSE,"visual"
"429","blank.png",0,"B","",NA,"None",NA,3,1,"f002",FALSE,"visual"
"430","blank.png",0,"B","",NA,"None",NA,3,1,"f002",FALSE,"visual"
"431","blank.png",0,"B","",NA,"None",NA,3,1,"f002",FALSE,"visual"
"432","blank.png",0,"B","",NA,"None",NA,3,1,"f002",FALSE,"visual"
"433","Alien1.bmp",145,"R","",NA,"None",NA,3,1,"f002",FALSE,"visual"
"434","Alien6.bmp",146,"R","",NA,"None",NA,3,1,"f002",FALSE,"visual"
"435","Alien6.bmp",147,"R","",NA,"None",NA,3,1,"f002",FALSE,"visual"
"436","Alien2.bmp",148,"R","",NA,"None",NA,3,1,"f002",FALSE,"visual"
"437","Alien3.bmp",149,"R","",NA,"3",0.475392582826,3,1,"f002",FALSE,"visual"
"438","Alien11.bmp",150,"R","",NA,"None",NA,3,1,"f002",FALSE,"visual"
"439","Alien7.bmp",151,"R","",NA,"None",NA,3,1,"f002",FALSE,"visual"
"440","Alien5.bmp",152,"R","",NA,"None",NA,3,1,"f002",FALSE,"visual"
"441","Alien5.bmp",153,"R","",NA,"None",NA,3,1,"f002",FALSE,"visual"
"442","Alien5.bmp",154,"R","",NA,"None",NA,3,1,"f002",FALSE,"visual"
"443","Alien8.bmp",155,"R","",NA,"None",NA,3,1,"f002",FALSE,"visual"
"444","Alien7.bmp",156,"R","",NA,"None",NA,3,1,"f002",FALSE,"visual"
"445","Alien3.bmp",157,"R","",NA,"3",0.633499230724,3,1,"f002",FALSE,"visual"
"446","Alien6.bmp",158,"R","",NA,"None",NA,3,1,"f002",FALSE,"visual"
"447","Alien4.bmp",159,"R","",NA,"None",NA,3,1,"f002",FALSE,"visual"
"448","Alien10.bmp",160,"R","",NA,"None",NA,3,1,"f002",FALSE,"visual"
"449","Alien1.bmp",161,"R","",NA,"None",NA,3,1,"f002",FALSE,"visual"
"450","Alien8.bmp",162,"R","",NA,"None",NA,3,1,"f002",FALSE,"visual"
"451","Alien9.bmp",163,"R","",NA,"None",NA,3,1,"f002",FALSE,"visual"
"452","Alien9.bmp",164,"R","",NA,"None",NA,3,1,"f002",FALSE,"visual"
"453","Alien2.bmp",165,"R","",NA,"None",NA,3,1,"f002",FALSE,"visual"
"454","Alien4.bmp",166,"R","",NA,"None",NA,3,1,"f002",FALSE,"visual"
"455","Alien12.bmp",167,"R","",NA,"None",NA,3,1,"f002",FALSE,"visual"
"456","Alien4.bmp",168,"R","",NA,"None",NA,3,1,"f002",FALSE,"visual"
"457","Alien12.bmp",169,"R","",NA,"None",NA,3,1,"f002",FALSE,"visual"
"458","Alien1.bmp",170,"R","",NA,"None",NA,3,1,"f002",FALSE,"visual"
"459","Alien7.bmp",171,"R","",NA,"None",NA,3,1,"f002",FALSE,"visual"
"460","Alien5.bmp",172,"R","",NA,"3",0.0752622503787,3,1,"f002",FALSE,"visual"
"461","Alien12.bmp",173,"R","",NA,"None",NA,3,1,"f002",FALSE,"visual"
"462","Alien4.bmp",174,"R","",NA,"None",NA,3,1,"f002",FALSE,"visual"
"463","Alien8.bmp",175,"R","",NA,"None",NA,3,1,"f002",FALSE,"visual"
"464","Alien6.bmp",176,"R","",NA,"None",NA,3,1,"f002",FALSE,"visual"
"465","Alien11.bmp",177,"R","",NA,"None",NA,3,1,"f002",FALSE,"visual"
"466","Alien7.bmp",178,"R","",NA,"None",NA,3,1,"f002",FALSE,"visual"
"467","Alien1.bmp",179,"R","",NA,"None",NA,3,1,"f002",FALSE,"visual"
"468","Alien11.bmp",180,"R","",NA,"None",NA,3,1,"f002",FALSE,"visual"
"469","Alien9.bmp",181,"R","",NA,"None",NA,3,1,"f002",FALSE,"visual"
"470","Alien10.bmp",182,"R","",NA,"None",NA,3,1,"f002",FALSE,"visual"
"471","Alien2.bmp",183,"R","",NA,"None",NA,3,1,"f002",FALSE,"visual"
"472","Alien2.bmp",184,"R","",NA,"None",NA,3,1,"f002",FALSE,"visual"
"473","Alien8.bmp",185,"R","",NA,"None",NA,3,1,"f002",FALSE,"visual"
"474","Alien11.bmp",186,"R","",NA,"None",NA,3,1,"f002",FALSE,"visual"
"475","Alien3.bmp",187,"R","",NA,"3",0.467052392196,3,1,"f002",FALSE,"visual"
"476","Alien3.bmp",188,"R","",NA,"3",0.592172320932,3,1,"f002",FALSE,"visual"
"477","Alien9.bmp",189,"R","",NA,"None",NA,3,1,"f002",FALSE,"visual"
"478","Alien10.bmp",190,"R","",NA,"None",NA,3,1,"f002",FALSE,"visual"
"479","Alien10.bmp",191,"R","",NA,"None",NA,3,1,"f002",FALSE,"visual"
"480","Alien12.bmp",192,"R","",NA,"None",NA,3,1,"f002",FALSE,"visual"
